{
    "resourceType": "Bundle",
    "identifier": {
      "system": "システムのURI",
      "value": "ドキュメントID "
    },
    "type": "document",
    "timestamp": "2022-07-09T13:28:17.239+02:00",
    "entry": [
      {
        "resource": {
          "resourceType": "Composition",
          "status": "final",
          "type": {
            "coding": [
              {
                "system": "http://hl7.org/fhir/ValueSet/doc-typecodes",
                "code": "11503-0",
                "display": "Medical records"
              }
            ]
          },
          "subject": {
            "reference": "Patient/カルテID ",
            "type": "Patient"
          },
          "date": "2022-07-01",
          "author": [
            {
              "reference": "Organization/医療機関ID ",
              "type": "Organization"
            },
            {
              "reference": "Organization/診療科ID ",
              "type": "Organization" 
            },
            {
              "reference": "Practitioner/医療者ID ",
              "type": "Practitioner"
            }
          ],
          "title": "○○さんSHC電子カルテ",
          "section": [
            {
              "title": "産科ー診療内容",
              "entry": [
                {
                  "reference": "Encounter/診療番号"
                },
                {
                  "reference": "Observation/obs001"
                },
                {
                  "reference": "Observation/obs002"
                }
              ]
            },
            {
              "title": "検査データー初回",
              "entry": [
                {
                  "reference": "Specimen/spc001"
                },
                {
                  "reference": "Observation/obs003"
                },
                {
                  "reference": "Observation/obs004"
                }
              ]
            }
          ]
        }
      },
      {
        "resource": {
          "resourceType": "Patient",
          "id": "example",
          "identifier": [
            {
              "type": {
                "coding": [
                  {
                    "system": "http://loinc.org",
                    "code": "46106-1",
                    "display": "カルテID"
                  }
                ]
              },
              "value": "カルテID"
            }
          ],
          "active": true,
          "name": [
            {
              "use": "official",
              "family": "Chalmers",
              "given": [
                "Peter",
                "James"
              ]
            },
            {
              "use": "usual",
              "given": [
                "Jim"
              ]
            },
            {
              "use": "maiden",
              "family": "Windsor",
              "given": [
                "Peter",
                "James"
              ],
              "period": {
                "end": "2002"
              }
            }
          ],
          "telecom": [
            {
              "use": "home"
            },
            {
              "system": "phone",
              "value": "(03) 5555 6473",
              "use": "work",
              "rank": 1
            },
            {
              "system": "phone",
              "value": "(03) 3410 5613",
              "use": "mobile",
              "rank": 2
            },
            {
              "system": "phone",
              "value": "(03) 5555 8834",
              "use": "old",
              "period": {
                "end": "2014"
              }
            }
          ],
          "gender": "male",
          "birthDate": "1974-12-25",
          "_birthDate": {
            "extension": [
              {
                "url": "http://hl7.org/fhir/StructureDefinition/patient-birthTime",
                "valueDateTime": "1974-12-25T14:35:45-05:00"
              }
            ]
          },
          "deceasedBoolean": false,
          "address": [
            {
              "use": "home",
              "type": "both",
              "text": "534 Erewhon St PeasantVille, Rainbow, Vic  3999",
              "line": [
                "534 Erewhon St"
              ],
              "city": "PleasantVille",
              "district": "Rainbow",
              "state": "Vic",
              "postalCode": "3999",
              "period": {
                "start": "1974-12-25"
              }
            }
          ],
          "contact": [
            {
              "relationship": [
                {
                  "coding": [
                    {
                      "system": "http://terminology.hl7.org/CodeSystem/v2-0131",
                      "code": "N"
                    }
                  ]
                }
              ],
              "name": {
                "family": "du Marché",
                "_family": {
                  "extension": [
                    {
                      "url": "http://hl7.org/fhir/StructureDefinition/humanname-own-prefix",
                      "valueString": "VV"
                    }
                  ]
                },
                "given": [
                  "Bénédicte"
                ]
              },
              "telecom": [
                {
                  "system": "phone",
                  "value": "+33 (237) 998327"
                }
              ],
              "address": {
                "use": "home",
                "type": "both",
                "line": [
                  "534 Erewhon St"
                ],
                "city": "PleasantVille",
                "district": "Rainbow",
                "state": "Vic",
                "postalCode": "3999",
                "period": {
                  "start": "1974-12-25"
                }
              },
              "gender": "female",
              "period": {
                "start": "2012"
              }
            }
          ]
        }
      },
      {
        "resource": {
          "resourceType": "Organization",
          "id": "hl7",
          "text": {
            "status": "generated",
            "div": "<div xmlns=\"http://www.w3.org/1999/xhtml\">\n      Health Level Seven International\n      <br/>\n\t\t\t\t3300 Washtenaw Avenue, Suite 227\n      <br/>\n\t\t\t\tAnn Arbor, MI 48104\n      <br/>\n\t\t\t\tUSA\n      <br/>\n\t\t\t\t(+1) 734-677-7777 (phone)\n      <br/>\n\t\t\t\t(+1) 734-677-6622 (fax)\n      <br/>\n\t\t\t\tE-mail:  \n      <a href=\"mailto:hq@HL7.org\">hq@HL7.org</a>\n    \n    </div>"
          },
          "name": "Health Level Seven International",
          "alias": [
            "HL7 International"
          ],
          "telecom": [
            {
              "system": "phone",
              "value": "(+1) 734-677-7777"
            },
            {
              "system": "fax",
              "value": "(+1) 734-677-6622"
            },
            {
              "system": "email",
              "value": "hq@HL7.org"
            }
          ],
          "address": [
            {
              "line": [
                "3300 Washtenaw Avenue, Suite 227"
              ],
              "city": "Ann Arbor",
              "state": "MI",
              "postalCode": "48104",
              "country": "USA"
            }
          ],
          "endpoint": [
            {
              "reference": "Endpoint/example"
            }
          ]
        }
      },
      {
        "resource": {
          "resourceType": "Organization",
          "id": "hl7",
          "text": {
            "status": "generated",
            "div": "<div xmlns=\"http://www.w3.org/1999/xhtml\">\n      Health Level Seven International\n      <br/>\n\t\t\t\t3300 Washtenaw Avenue, Suite 227\n      <br/>\n\t\t\t\tAnn Arbor, MI 48104\n      <br/>\n\t\t\t\tUSA\n      <br/>\n\t\t\t\t(+1) 734-677-7777 (phone)\n      <br/>\n\t\t\t\t(+1) 734-677-6622 (fax)\n      <br/>\n\t\t\t\tE-mail:  \n      <a href=\"mailto:hq@HL7.org\">hq@HL7.org</a>\n    \n    </div>"
          },
          "name": "Health Level Eight International",
          "alias": [
            "HL8 International"
          ],
          "telecom": [
            {
              "system": "phone",
              "value": "(+1) 734-677-7777"
            },
            {
              "system": "fax",
              "value": "(+1) 734-677-6622"
            },
            {
              "system": "email",
              "value": "hq@HL7.org"
            }
          ],
          "address": [
            {
              "line": [
                "3300 Washtenaw Avenue, Suite 227"
              ],
              "city": "Ann Arbor",
              "state": "MI",
              "postalCode": "48104",
              "country": "USA"
            }
          ],
          "endpoint": [
            {
              "reference": "Endpoint/example"
            }
          ]
        }
      },
      {
        "resource": {
          "resourceType": "Practitioner",
          "id": "example",
          "text": {
            "status": "generated",
            "div": "<div xmlns=\"http://www.w3.org/1999/xhtml\">\n      <p>Dr Adam Careful is a Referring Practitioner for Acme Hospital from 1-Jan 2012 to 31-Mar\n        2012</p>\n    </div>"
          },
          "identifier": [
            {
              "system": "http://www.acme.org/practitioners",
              "value": "23"
            }
          ],
          "active": true,
          "name": [
            {
              "family": "Careful",
              "given": [
                "Adam"
              ],
              "prefix": [
                "Dr"
              ]
            }
          ],
          "address": [
            {
              "use": "home",
              "line": [
                "534 Erewhon St"
              ],
              "city": "PleasantVille",
              "state": "Vic",
              "postalCode": "3999"
            }
          ],
          "qualification": [
            {
              "identifier": [
                {
                  "system": "http://example.org/UniversityIdentifier",
                  "value": "12345"
                }
              ],
              "code": {
                "coding": [
                  {
                    "system": "http://terminology.hl7.org/CodeSystem/v2-0360/2.7",
                    "code": "BS",
                    "display": "Bachelor of Science"
                  }
                ],
                "text": "Bachelor of Science"
              },
              "period": {
                "start": "1995"
              },
              "issuer": {
                "display": "Example University"
              }
            }
          ]
        }
      },
      {
        "resource": {
          "resourceType": "Observation",
          "id": "body-temperature",
          "meta": {
            "profile": [
              "http://hl7.org/fhir/StructureDefinition/vitalsigns"
            ]
          },
          "text": {
            "status": "generated",
            "div": "<div xmlns=\"http://www.w3.org/1999/xhtml\"><p><b>Generated Narrative: Observation</b><a name=\"body-temperature\"> </a></p><div style=\"display: inline-block; background-color: #d9e0e7; padding: 6px; margin: 4px; border: 1px solid #8da1b4; border-radius: 5px; line-height: 60%\"><p style=\"margin-bottom: 0px\">Resource Observation &quot;body-temperature&quot; </p><p style=\"margin-bottom: 0px\">Profile: <a href=\"vitalsigns.html\">Vital Signs Profile</a></p></div><p><b>status</b>: final</p><p><b>category</b>: Vital Signs <span style=\"background: LightGoldenRodYellow; margin: 4px; border: 1px solid khaki\"> (<a href=\"http://terminology.hl7.org/4.0.0/CodeSystem-observation-category.html\">Observation Category Codes</a>#vital-signs)</span></p><p><b>code</b>: Body temperature <span style=\"background: LightGoldenRodYellow; margin: 4px; border: 1px solid khaki\"> (<a href=\"https://loinc.org/\">LOINC</a>#8310-5)</span></p><p><b>subject</b>: <a href=\"patient-example.html\">Patient/example</a> &quot;Peter CHALMERS&quot;</p><p><b>effective</b>: 1999-07-02</p><p><b>value</b>: 36.5 C<span style=\"background: LightGoldenRodYellow\"> (Details: UCUM code Cel = 'Cel')</span></p></div>"
          },
          "status": "final",
          "category": [
            {
              "coding": [
                {
                  "system": "http://terminology.hl7.org/CodeSystem/observation-category",
                  "code": "vital-signs",
                  "display": "Vital Signs"
                }
              ],
              "text": "Vital Signs"
            }
          ],
          "code": {
            "coding": [
              {
                "system": "http://loinc.org",
                "code": "8310-5",
                "display": "Body temperature"
              }
            ],
            "text": "Body temperature"
          },
          "subject": {
            "reference": "Patient/example"
          },
          "effectiveDateTime": "1999-07-02",
          "valueQuantity": {
            "value": 36.5,
            "unit": "C",
            "system": "http://unitsofmeasure.org",
            "code": "Cel"
          }
        }
      },
      {
        "resource": {
          "resourceType": "Encounter",
          "id": "診療番号",
          "status": "finished",
          "subject": {
            "reference": "Patient/カルテID"
          },
          "period": {
            "start": "2022-07-02",
            "end": "2022-07-02"
          }
        }
      },
      {
        "resource": {
          "resourceType": "Observation",
          "id": " obs001",
          "status": "final",
          "category": [
            {
              "coding": [
                {
                  "system": "http://terminology.hl7.org/CodeSystem/observation-category",
                  "code": "vital-signs",
                  "display": "Vital Signs"
                }
              ]
            }
          ],
          "code": {
            "coding": [
              {
                "system": "http://loinc.org",
                "code": "8867-4",
                "display": "Heart rate"
              }
            ]
          },
          "subject": {
            "reference": "Patient/カルテID"
          },            
          "effectiveDateTime": "2022-07-02",
          "valueQuantity": {
            "value": 44,
            "unit": "beats/minute",
            "system": "http://unitsofmeasure.org",
            "code": "{beats}/min"
          }
        }
      },
      {
        
        "resource": {
          "resourceType": "Observation",
          "id": "example",
          "text": {
            "status": "generated",
            "div": "<div xmlns=\"http://www.w3.org/1999/xhtml\"><p><b>Generated Narrative</b></p><div style=\"display: inline-block; background-color: #d9e0e7; padding: 6px; margin: 4px; border: 1px solid #8da1b4; border-radius: 5px; line-height: 60%\"><p style=\"margin-bottom: 0px\">Resource &quot;example&quot; </p></div><p><b>status</b>: final</p><p><b>category</b>: Vital Signs <span style=\"background: LightGoldenRodYellow; margin: 4px; border: 1px solid khaki\"> (<a href=\"codesystem-observation-category.html\">Observation Category Codes</a>#vital-signs)</span></p><p><b>code</b>: Body Weight <span style=\"background: LightGoldenRodYellow; margin: 4px; border: 1px solid khaki\"> (<a href=\"https://loinc.org/\">LOINC</a>#29463-7; <a href=\"https://loinc.org/\">LOINC</a>#3141-9 &quot;Body weight Measured&quot;; <a href=\"https://browser.ihtsdotools.org/\">SNOMED CT</a>#27113001 &quot;Body weight&quot;; clinical-codes#body-weight)</span></p><p><b>subject</b>: <a href=\"patient-example.html\">Patient/example</a> &quot;Peter CHALMERS&quot;</p><p><b>encounter</b>: <a href=\"encounter-example.html\">Encounter/example</a></p><p><b>effective</b>: 2016-03-28</p><p><b>value</b>: 185 lbs<span style=\"background: LightGoldenRodYellow\"> (Details: UCUM code [lb_av] = 'lb_av')</span></p></div>"
          },
          "status": "final",
          "category": [
            {
              "coding": [
                {
                  "system": "http://terminology.hl7.org/CodeSystem/observation-category",
                  "code": "vital-signs",
                  "display": "Vital Signs"
                }
              ]
            }
          ],
          "code": {
            "coding": [
              {
                "system": "http://loinc.org",
                "code": "29463-7",
                "display": "Body Weight"
              },
              {
                "system": "http://loinc.org",
                "code": "3141-9",
                "display": "Body weight Measured"
              },
              {
                "system": "http://snomed.info/sct",
                "code": "27113001",
                "display": "Body weight"
              },
              {
                "system": "http://acme.org/devices/clinical-codes",
                "code": "body-weight",
                "display": "Body Weight"
              }
            ]
          },
          "subject": {
            "reference": "Patient/example"
          },
          "encounter": {
            "reference": "Encounter/example"
          },
          "effectiveDateTime": "2016-03-28",
          "valueQuantity": {
            "value": 185,
            "unit": "lbs",
            "system": "http://unitsofmeasure.org",
            "code": "[lb_av]"
          }
        }
      },
      {
        "resource": {
          "resourceType": "Observation",
          "id": "obs002",
          "status": "final",
          "category": [
            {
              "coding": [
                {
                  "system": "http://terminology.hl7.org/CodeSystem/observation-category",
                  "code": "vital-signs",
                  "display": "Vital Signs"
                }
              ]
            }
          ],
          "code": {
            "coding": [
              {
                "system": "http://loinc.org",
                "code": "85354-9",
                "display": "Blood pressure panel with all children optional"
              }
            ]
          },
          "subject": {
            "reference": "Patient/example"
          },
          "effectiveDateTime": "2022-07-02",
          "component": [
            {
              "code": {
                "coding": [
                  {
                    "system": "http://loinc.org",
                    "code": "8480-6",
                    "display": "Systolic blood pressure"
                  } 
                ]        
              },          
              "valueQuantity": {
                "value": 107,
                "unit": "mmHg",
                "system": "http://unitsofmeasure.org",
                "code": "mm[Hg]"
              }
            },
            {
              "code": {
                "coding": [
                  {
                    "system": "http://loinc.org",
                    "code": "8462-4",
                    "display": "Diastolic blood pressure"
                  } 
                ]        
              },          
              "valueQuantity": {
                "value": 60,
                "unit": "mmHg",
                "system": "http://unitsofmeasure.org",
                "code": "mm[Hg]"
              }
            }
          ]
        }
      },
      {
        "resource": {
          "resourceType": "Specimen",
          "id": "spc001",
          "subject": {
            "reference": "Patient/example"
          },
          "collection": {
            "collectedDateTime": "2022-07-02"
          }
        }
      },
      {
        "resource": {
          "resourceType": "Observation",
          "id": "obs003",
          "status": "final",
          "category": [
            {
              "coding": [
                {
                  "system": "http://terminology.hl7.org/CodeSystem/observation-category",
                  "code": "laboratory",
                  "display": "Laboratory"
                }
              ]
            }
          ],
          "code": {
            "coding": [
              {
                "system": "http://loinc.org",
                "code": "2160-0",
                "display": "Creatinine [Mass/volume] in Serum or Plasma"
              }
            ]
          },
          "subject": {
            "reference": "Patient/カルテID"
          },
          "effectiveDateTime": "2022-07-02",
          "valueQuantity": {
            "value": 0.8,
            "unit": "mg/dL",
            "system": "http://unitsofmeasure.org",
            "code": "mg/dL"
          }
        }
      },
      {
        "resource": {
          "resourceType": "Observation",
          "id": "obs004",
          "status": "final",
          "category": [
            {
              "coding": [
                {
                  "system": "http://terminology.hl7.org/CodeSystem/observation-category",
                  "code": "laboratory",
                  "display": "Laboratory"
                }
              ]
            }
          ],
          "code": {
            "coding": [
              {
                "system": "http://loinc.org",
                "code": "69405-9",
                "display": "Glomerular filtration rate/1.73 sq M.predicted [Volume Rate/Area] in Serum, Plasma or Blood"
              }
            ]
          },
          "subject": {
            "reference": "Patient/カルテID"
          },
          "effectiveDateTime": "2022-07-02",
          "valueQuantity": {
            "value": 93.3,
            "unit": "mg/dL",
            "system": "http://unitsofmeasure.org",
            "code": "mg/dL"
          }
        }
      }
    ]
  }