{
  "resourceType": "Bundle",
  "identifier": {
    "system": "Input the system URI  here",
    "value": "Input the URI value here"
  },
  "type": "document",
  "timestamp": "2022-07-09T13:28:17.239+02:00",
  "entry": [
    {
      "resource": {
        "resourceType": "Composition",
        "status": "final",
        "type": {
          "coding": [
            {
              "system": "http://hl7.org/fhir/ValueSet/doc-typecodes",
              "code": "11503-0",
              "display": "Medical records"
            }
          ]
        },
        "subject": [{
          "reference": "Patient/101 ",
          "type": "Patient"  
        },
        [
          {
            "reference": "RelatedPerson/husband",
            "type": "RelatedPerson"
          },
          {
            "reference": "Observation/bloodgroup ",
            "type": "Observation"
          },
          {
            "reference": "Observation/smokinghusband",
            "type": "Observation"
          },
          {
            "reference": "Observation/drinkinghusband",
            "type": "Observation"
          }
        ],
        {
          "reference": "Observation/height01",
            "type": "Observation"
        },
        {
          "reference": "Observation/weight02 ",
            "type": "Observation"
        },
        {
          "reference": "Observation/bmi ",
            "type": "Observation"
        },
        {
          "reference": "Observation/smokingpatient",
          "type": "Observation"
        },
        {
          "reference": "Observation/drinkingpatient",
          "type": "Observation"
        }
      ],
        
        "date": "2022-12-09",
        
        "author": [
          {
            "reference": "Organization/institution ",
            "type": "Organization"
          },
          {
            "reference": "Organization/department ",
            "type": "Organization" 
          },
          {
            "reference": "Practitioner/doctor01 ",
            "type": "Practitioner"
          }
        ],
        "title": "OgawaさんSHC電子カルテ",
        "section": [
          {
            "title": "産科ー診療内容",
            "entry": [
              {
                "reference": "Encounter/checkup101"
              },
              
              {
                "reference": "Observation/bloodpressure01"
              },
              {
                "reference": "Observation/heartrate01"
              },
              {
                "reference": "Observation/weight01"
              },
              {
                "reference": "Observation/proteinurine"
              },
              {
                "reference": "Observation/sugarurine"
              },
              {
                "reference": "Observation/ketonesurine"
              }
            ]
          }
        ]
      }
    },
    {
      "resource": {
        "resourceType": "Patient",
        "id": "101",
        "identifier": [
          {
            "type": {
              "coding": [
                {
                  "system": "http://loinc.org",
                  "code": "46106-1",
                  "display": "カルテID"
                }
              ]
            },
            "value": "100001"
          }
        ],
         "active": true,
        "name": [
          {
            "use": "official",
            "family": "Ogawa",
            "given": [
              "Tomomi"
            ]
          }
        ]
      }
    },
    {
      "resourceType": "RelatedPerson",
      "id": "husband",
      "patient": {
        "reference": "Patient/101"
      },
      "relationship": [
        {
          "coding": [
            {
              "system": "http://terminology.hl7.org/CodeSystem/v3-RoleCode",
              "code": "HUSB"
            }
          ]
        }
      ],
      "name": [
        {
          "use": "official",
          "family": "Ogawa",
          "given": [
            "Naoki"
          ]
        }
      ],
      "gender" : "male",
      "birthDate" : "1982-07-10",
      "telecom": [
        {
          "system": "phone",
          "value": "001-001-001",
          "use": "mobile"
        }
      ]
    },

    {
      "resourceType" : "Observation",
      "id" : "bloodgroup",
      "category" : [
        {
        "coding" : [
          {
          "system" : "http://terminology.hl7.org/CodeSystem/observation-category",
          "code" : "laboratory",
          "display" : "Laboratory"
        }
      ],
        "text" : "Laboratory"
      }],
      "component" : [
        {
          "code" : {
            "coding" : [
              {
                "system" : "http://loinc.org",
                "code" : "883-9",
                "display" : "血液型（ABO）"
              }
            ],
            "text" : "Blood Group"
          },
          "subject" : {
            "reference" : "RelatedPerson/husband",
            "display" : "Naoki Ogawa"
          },
          "effectiveDateTime" : "2022-12-09",
          "valueCodeableConcept" : {
            "coding" : [
              {
                "system" : "http://snomed.info/sct",
                "code" : "112144000",
                "display" : "Blood group A"
              }
            ]
          }
        },
        {
          "code" : {
            "coding" : [
              {
                "system" : "http://loinc.org",
                "code" : "10331-7",
                "display" : "血液型（Rh）"
              }
            ],
            "text" : "RH"
          },
          "effectiveDateTime" : "2022-12-09",
          "valueCodeableConcept" : {
            "coding" : [
              {
                "system" : "http://snomed.info/sct",
                "code" : "10828004",
                "display" : "Positive"
              }
            ]
          }
        }
      ]

    },

    {
      "resourceType" : "Observation",
      "id" : "smokinghusband",
      "category" : [
        {
          "coding" : [
            {
              "system" : "http://terminology.hl7.org/CodeSystem/observation-category",
              "code" : "social-history",
              "display" : "Social History"
            }
          ],
          "text" : "Social History"
        }
      ],
      "code" : {
        "coding" : [
          {
            "system" : "http://loinc.org",
            "code" : "72166-2",
            "display" : "喫煙"
          }
        ],
        "text" : "Smoking Husband"
      },
      "subject" : {
        "reference" : "RelatedPerson/husband",
        "display" : "Naoki Ogawa"
      },
      "effectiveDateTime": "2022-12-09",
      "valueCodeableConcept" : {
        "coding" : [
          {
            "system" : "http://snomed.info/sct",
            "code" : "428041000124106"
          }
        ],
        "text" : "現在も吸っている"
      }
    }, 

    {
      "resourceType" : "Observation",
      "id" : "drinkinghusband",
      "category" : [
        {
          "coding" : [
            {
              "system" : "http://terminology.hl7.org/CodeSystem/observation-category",
              "code" : "social-history",
              "display" : "Social History"
            }
          ],
          "text" : "Social History"
        }
      ],
      "code" : {
        "coding" : [
          {
            "system" : "http://loinc.org",
            "code" : "74205-6",
            "display" : "飲酒"
          }
        ],
        "text" : "Drinking Husband"
      },
      "subject" : {
        "reference" : "RelatedPerson/husband",
        "display" : "Naoki Ogawa"
      },
      "effectiveDateTime": "2022-12-09",
      "valueCodeableConcept" : {
        "coding" : [
          {
            "system" : "http://snomed.info/sct",
            "code" : "219006"
          }
        ],
        "text" : "現在も飲んでいる"
      }
    },


    {
      "resource": {
        "resourceType": "Organization",
        "id": "institution",
        "identifier": [
        {
            "type": {
              "coding": [
                {
                  "system": "http://loinc.org",
                  "code": "58237-9",
                  "display": "埼玉医大総合医療センター"
                }
              ],
              "text": "Saitama Medical University"
            },
            "value": "institution"
          }
        ]
      }
    },
    {
      "resource": {
        "resourceType": "Organization",
        "id": "department",
        "identifier": [
          {
            "type": {
              "coding": [
                {
                  "system": "http://loinc.org",
                  "code": "91025-7 ",
                  "display": "産科"
                }
              ],
              "text": "Obstetrics"
            },
            "value": "department"
          }
        ],
        "partOf": {
          "reference": "Organization/institution"
        }
      }
    },
    {
      "resource": {
        "resourceType": "Practitioner",
        "id": "doctor01",
        "identifier": [
          {
            "type": {
              "coding": [
                {
                  "system": "http://loinc.org",
                  "code": "46106-1",
                  "display": "泉田欣彦" 
                }
              ]
            },
            "value": "doctor01" 
          }
        ]
      }
    },
    {
      "resourceType": "Observation",
      "id": "bloodpressure01",
      "status": "final",
      "category": [
        {
          "coding": [
            {
              "system": "http://terminology.hl7.org/CodeSystem/observation-category",
              "code": "vital-signs",
              "display": "Vital Signs"
            }
          ]
        }
      ],
      "code": {
        "coding": [
          {
            "system": "http://loinc.org",
            "code": "85354-9",  
            "display":"Blood Pressure"
          }
        ],
        "text":"Blood Pressure 1"
      },
      "subject": {
        "reference": "Patient/101"
      },
      "effectiveDateTime": "2022-12-09",
      "component": [
        {
          "code": {
            "coding": [
              {
                "system": "http://loinc.org",
                "code": "8480-6",
                "display": "血圧（収縮）"
              } 
            ],
            "text":"Systolic blood pressure"        
          },          
          "valueQuantity": {
            "value": 107,
            "unit": "mmHg",
            "system": "http://unitsofmeasure.org",
            "code": "mm[Hg]"
          }
        },
        {
          "code": {
            "coding": [
              {
                "system": "http://loinc.org",
                "code": "8462-4",
                "display": "血圧（拡張）"
              } 
            ],
            "text":"Diastolic blood pressure"        
          },          
          "valueQuantity": {
            "value": 60,
            "unit": "mmHg",
            "system": "http://unitsofmeasure.org",
            "code": "mm[Hg]"
          }
        }
      ]
    },
    {
      "resourceType": "Observation",
      "id": "heartrate01",
      "status": "final",
      "category": [
        {
          "coding": [
            {
              "system": "http://terminology.hl7.org/CodeSystem/observation-category",
              "code": "vital-signs",
              "display": "Vital Signs"
            }
          ]
        }
      ],
      "code": {
        "coding": [
          {
            "system": "http://loinc.org",
            "code": "8867-4",
            "display": "脈拍"
          }
        ],
        "text":"Heart Rate"
      },
      "subject": {
        "reference": "Patient/101"
      },            
      "effectiveDateTime": "2022-12-09",
      "valueQuantity": {
        "value": 44,
        "unit": "beats/minute",
        "system": "http://unitsofmeasure.org",
        "code": "{beats}/min"
      }
    },

    {
      "resourceType": "Observation",
      "id": "weight01",
      "status": "final",
      "category": [
        {
          "coding": [
            {
              "system": "http://terminology.hl7.org/CodeSystem/observation-category",
              "code": "vital-signs",
              "display": "Vital Signs"
            }
          ]
        }
      ],
      "code": {
        "coding": [
          {
            "system": "http://loinc.org",
            "code": "29463-7",
            "display": "体重"
          }
        ],
        "text":"Body Weight"
      },
      "subject": {
        "reference": "Patient/101"
      },            
      "effectiveDateTime": "2022-12-09",
      "valueQuantity": {
        "value" : 70.09414,
        "unit" : "kg",
        "system" : "http://unitsofmeasure.org",
        "code" : "kg"
      }
    },
    {
      "resourceType": "Observation",
      "id": "weightlossgain",
      "status": "final",
      "category": [
        {
          "coding": [
            {
              "system": "http://terminology.hl7.org/CodeSystem/observation-category",
              "code": "vital-signs",
              "display": "Vital Signs"
            }
          ]
        }
      ],
      "code": {
        "coding": [
          {
            "system": "http://loinc.org",
            "code": "29463-7",
            "display": "体重増減"
          }
        ],
        "text":"Weight Loss Gain"
      },
      "subject": {
        "reference": "Patient/101"
      },            
      "effectiveDateTime": "2022-12-09",
      "valueQuantity": {
        "value" : 5,
        "unit" : "kg",
        "system" : "http://unitsofmeasure.org",
        "code" : "kg"
      }
    },
    {
      "resourceType": "Observation",
      "id": "height01",
      "status": "final",
      "category": [
        {
          "coding": [
            {
              "system": "http://terminology.hl7.org/CodeSystem/observation-category",
              "code": "vital-signs",
              "display": "Vital Signs"
            }
          ]
        }
      ],
      "code": {
        "coding": [
          {
            "system": "http://loinc.org",
            "code": "8302-2",
            "display": "身長"
          }
        ],
        "text":"Body Height"
      },
      "subject": {
        "reference": "Patient/101"
      },            
      "effectiveDateTime": "2022-12-09",
      "valueQuantity": {
        "value" : 156,
        "unit" : "cm",
        "system" : "http://unitsofmeasure.org",
        "code" : "cm"
      }
    },

    {
      "resourceType": "Observation",
      "id": "weight02",
      "status": "final",
      "category": [
        {
          "coding": [
            {
              "system": "http://terminology.hl7.org/CodeSystem/observation-category",
              "code": "vital-signs",
              "display": "Vital Signs"
            }
          ]
        }
      ],
      "code": {
        "coding": [
          {
            "system": "http://loinc.org",
            "code": "29463-7",
            "display": "妊娠前の体重"
          }
        ],
        "text":"Weight before pregnancy"
      },
      "subject": {
        "reference": "Patient/101"
      },            
      "effectiveDateTime": "2022-12-09",
      "valueQuantity": {
        "value" : 67,
        "unit" : "kg",
        "system" : "http://unitsofmeasure.org",
        "code" : "kg"
      }
    },
    {
      "resourceType": "Observation",
      "id": "bmi",
      "status": "final",
      "category": [
        {
          "coding": [
            {
              "system": "http://terminology.hl7.org/CodeSystem/observation-category",
              "code": "vital-signs",
              "display": "Vital Signs"
            }
          ]
        }
      ],
      "code": {
        "coding": [
          {
            "system": "http://loinc.org",
            "code": "39156-5",
            "display": "BMI"
          }
        ],
        "text":"BMI"
      },
      "subject": {
        "reference": "Patient/101"
      },            
      "effectiveDateTime": "2022-12-09",
      "valueQuantity": {
        "value" : 28.8 ,
        "unit" : "kg/m2",
        "system" : "http://unitsofmeasure.org",
        "code" : "kg/m2"
      }
    },
    {
      "resourceType" : "Observation",
      "id" : "smokingpatient",
      "category" : [
        {
          "coding" : [
            {
              "system" : "http://terminology.hl7.org/CodeSystem/observation-category",
              "code" : "social-history",
              "display" : "Social History"
            }
          ],
          "text" : "Social History"
        }
      ],
      "code" : {
        "coding" : [
          {
            "system" : "http://loinc.org",
            "code" : "72166-2",
            "display" : "喫煙"
          }
        ],
        "text" : "Smoking Patient"
      },
      "subject" : {
        "reference" : "Patient/101",
        "display" : "Tomomi Ogawa"
      },
      "effectiveDateTime": "2022-12-09",
      "valueCodeableConcept" : {
        "coding" : [
          {
            "system" : "http://snomed.info/sct",
            "code" : "428041000124106"
          }
        ],
        "text" : "現在も吸っている"
      }
    }, 

    {
      "resourceType" : "Observation",
      "id" : "drinkingpatient",
      "category" : [
        {
          "coding" : [
            {
              "system" : "http://terminology.hl7.org/CodeSystem/observation-category",
              "code" : "social-history",
              "display" : "Social History"
            }
          ],
          "text" : "Social History"
        }
      ],
      "code" : {
        "coding" : [
          {
            "system" : "http://loinc.org",
            "code" : "74205-6",
            "display" : "飲酒"
          }
        ],
        "text" : "Drinking Patient"
      },
      "subject" : {
        "reference" : "Patient/101",
        "display" : "Tomomi Ogawa"
      },
      "effectiveDateTime": "2022-12-09",
      "valueCodeableConcept" : {
        "coding" : [
          {
            "system" : "http://snomed.info/sct",
            "code" : "219006"
          }
        ],
        "text" : "現在も飲んでいる"
      }
    },
    {
      "resourceType": "Observation",
      "id": "proteinurine",
      "status": "final",
      "category": [
        {
          "coding": [
            {
              "system": "http://terminology.hl7.org/CodeSystem/observation-category",
              "code": "laboratory",
              "display": "Laboratory"
            }
          ]
        }
      ],
      "code": {
        "coding": [
          {
            "system": "http://loinc.org",
            "code": "20454-5",
            "display": "Protein In Urine"
          }
        ],
        "text":"Protein In Urine"
      },
      "subject": {
        "reference": "Patient/101"
      },            
      "valueCodeableConcept" : {
        "coding" : [
          {
            "system" : "http://snomed.info/sct",
            "code" : "260385009",
            "display":"Negative"
          }
        ],
        "text" : "Negative"
      }
    },
    {
      "resourceType": "Observation",
      "id": "sugarurine",
      "status": "final",
      "category": [
        {
          "coding": [
            {
              "system": "http://terminology.hl7.org/CodeSystem/observation-category",
              "code": "laboratory",
              "display": "Laboratory"
            }
          ]
        }
      ],
      "code": {
        "coding": [
          {
            "system": "http://loinc.org",
            "code": "2349-9",
            "display": "Sugar In Urine"
          }
        ],
        "text":"Sugar In Urine"
      },
      "subject": {
        "reference": "Patient/101"
      },            
      "valueCodeableConcept" : {
        "coding" : [
          {
            "system" : "http://snomed.info/sct",
            "code" : "260385009",
            "display":"Negative"
          }
        ],
        "text" : "Negative"
      }
    },
    {
      "resourceType": "Observation",
      "id": "ketonesurine",
      "status": "final",
      "category": [
        {
          "coding": [
            {
              "system": "http://terminology.hl7.org/CodeSystem/observation-category",
              "code": "laboratory",
              "display": "Laboratory"
            }
          ]
        }
      ],
      "code": {
        "coding": [
          {
            "system": "http://loinc.org",
            "code": "5797-6",
            "display": "尿ケトン"
          }
        ],
        "text":"Ketones In Urine"
      },
      "subject": {
        "reference": "Patient/101"
      },            
      "valueCodeableConcept" : {
        "coding" : [
          {
            "system" : "http://snomed.info/sct",
            "code" : "260385009",
            "display":"Positive"
          }
        ],
        "text" : "Positive"
      }
    },
    {
      "resourceType": "Encounter",
      "id": "checkup101",
      "status": "finished",
      "subject": {
        "reference": "Patient/101"
      },
      "period": {
        "start": "2022-12-09",
        "end": "2022-12-09"
      }
    }
    
  ]
}
